trial	onset	masked	operant	practice	catch	contrast	stimulus_position	event_t	event_angle	resp_angle	overest_t	overest_angle	initial_offset_angle	aware
1	841.4624869823456	True	False	True	False	0.0	lower_right	3.6632959842681885	-5.15777730674354	-5.304388505860241	0.059734776453255874	0.14661119911670095	0.9394471987062897	False
2	865.3479080200195	True	False	True	False	0.0	lower_right	3.931159019470215	-1.948576534781747	-1.9872155460372827	0.015742949472004927	0.03863901125553593	-0.8915323293199794	False
3	884.030394077301	True	False	True	True	0.0	lower_right	3.2955288887023926	-4.521284696700535	-4.88017189637955	0.14622379991378762	0.35888719967901483	-1.0399746695002128	True
4	900.8283450603485	True	False	True	False	0.0	lower_right	2.5840539932250977	-1.9084681561224632	-2.164839350548299	0.10445502171966763	0.256371194425836	0.848094972851828	False
5	917.1584711074829	True	False	True	False	0.0	lower_right	3.2915639877319336	-0.8626996925116721	-0.9834374804369351	0.049193000361693565	0.12073778792526291	0.7935147616545769	False
6	937.1514210700989	True	False	False	False	0.0	lower_right	5.288877964019775	-0.4267385945591456	-0.35047121523064084	-0.03107412586699817	-0.07626737932850469	-0.9975191721914405	False
7	954.8737900257111	True	False	False	True	0.0	lower_right	3.5892910957336426	-4.673912467840382	-4.845272547805565	0.06981837766420818	0.17136007996518288	0.9883293956763387	False
8	972.2051711082458	True	False	False	True	0.0	lower_right	3.2962450981140137	-1.8551413806438433	-1.774685376736665	-0.03278072505151563	-0.08045600390717844	0.810630858940741	True
9	987.3179259300232	True	False	False	False	0.0	lower_right	4.0756800174713135	-5.156069574176893	-5.6455207148223785	0.19942033519538044	0.48945114064548534	1.032257800937011	False
10	1005.7669150829315	True	False	False	False	0.0	lower_right	6.588313102722168	-1.9840533385532364	-1.9920159962782895	0.0032442786229531367	0.007962657725053113	0.986056892824839	False
11	1024.4327030181885	True	False	False	False	0.0	lower_right	3.229421854019165	-3.325705308636328	-3.241201641467181	-0.034429891428766964	-0.08450366716914726	-0.8052051898045444	False
12	1039.2786180973053	True	False	False	False	0.0	lower_right	3.2724599838256836	-1.431005313673415	-1.303694001023063	-0.051871295282742445	-0.127311312650352	0.9679327844116805	True
13	1054.2746000289917	True	False	False	False	0.0	lower_right	3.868494987487793	-2.442447027215378	-2.4398195241097147	-0.001070541074574384	-0.002627503105663287	-1.0282075863535212	False
14	1070.2714579105377	True	False	False	False	0.0	lower_right	3.4405570030212402	-1.0275281825018006	-1.0569827209185851	0.012000858586934683	0.02945453841678436	-0.925299318541996	False
15	1084.7337369918823	True	False	False	False	0.0	lower_right	4.5166120529174805	-3.086397204551311	-3.336053674332089	0.1017191967756371	0.24965646978077816	-0.9368798627535667	False
16	1100.8976480960846	True	False	False	False	0.0	lower_right	3.3287649154663086	-2.28738217803544	-1.7028165533496689	-0.2381734623496759	-0.5845656246857711	-0.9494151631999095	False
17	1117.2445549964905	True	False	False	True	0.0	lower_right	2.752474069595337	-3.106624961869121	-2.332765107707155	-0.3152988698886403	-0.7738598541619659	0.9272579329505352	True
18	1131.423201084137	True	False	False	False	0.0	lower_right	4.16577410697937	-3.177045295194471	-3.243487998714775	0.027071192825972756	0.06644270352030368	0.9275768470296243	False
19	1147.303297996521	True	False	False	False	0.0	lower_right	2.9306130409240723	-3.414240869939717	-3.349039281706618	-0.026565516965734642	-0.06520158823309918	-0.9104101928621773	False
20	1161.9662039279938	True	False	False	False	0.0	lower_right	3.1849679946899414	-0.6046162598446694	-0.27761010853853585	-0.13323429222867822	-0.32700615130613375	-0.9001784790023752	False
21	1176.8283219337463	True	False	False	False	0.0	lower_right	3.2689437866210938	-5.307317732504071	-5.6167957871454615	0.1260927031670809	0.30947805464139044	-0.7942159836132336	False
22	1191.3572709560394	True	False	False	False	0.0	lower_right	3.1691298484802246	-3.245896465678028	-3.4530553834340396	0.08440413636207791	0.2071589177560118	0.8175402485516303	False
23	1206.303256034851	True	False	False	False	0.0	lower_right	6.568975925445557	-2.732495492412177	-2.940299393874173	0.08466692636533192	0.2078039014619959	0.859846726906441	False
24	1224.935627937317	True	False	False	False	0.0	lower_right	3.867435932159424	-2.684343378066412	-2.5263831179532446	-0.06435879989527594	-0.15796026011316755	0.8574554993890365	False
25	1238.8974630832672	True	False	False	False	0.0	lower_right	5.207614898681641	-0.9508936058000175	-0.949134279742237	-0.0007168139228317773	-0.0017593260577806191	0.9344196450922482	False
26	1255.4614470005035	True	False	False	False	0.0	lower_right	3.4519388675689697	-4.858551139139508	-5.056181480700385	0.0805218451567441	0.19763034156087667	0.9252435951713727	False
27	1271.374934911728	True	False	False	False	0.0	lower_right	3.797783136367798	-1.04538643526916	-0.972661110182329	-0.029630963137367464	-0.07272532508683094	-0.8599349939476358	False
28	1285.636999130249	True	False	False	False	0.0	lower_right	3.2518858909606934	-3.103457482463023	-3.084775411491011	-0.007611760492516622	-0.01868207097201191	0.9390705437034268	False
29	1301.1669421195984	True	False	False	False	0.0	lower_right	3.5187389850616455	-5.665164674817509	-5.380164794018893	-0.11611939791283388	-0.28499988079861627	0.8924562728013061	False
30	1314.5948231220245	True	False	False	False	0.0	lower_right	3.5657951831817627	-5.335885201299202	-5.100956110643863	-0.09571872269793603	-0.2349290906553394	-1.0352070017139248	False
31	1329.5741651058197	True	False	False	False	0.0	lower_right	3.507859230041504	-5.321413284086757	-5.521561386678572	0.08154767328755477	0.2001481025918146	-1.0284977280500311	False
32	1343.9196739196777	True	False	False	False	0.0	lower_right	3.5287418365478516	-5.740650679104824	-5.800629827822739	0.024437703682304086	0.059979148717914654	-0.8453773121153433	False
33	1358.2317171096802	True	False	False	False	0.0	lower_right	3.3010549545288086	-2.418068754699288	-2.4946931991909276	0.031219607302438442	0.07662444449163974	0.8008125661789619	False
34	1373.044333934784	True	False	False	False	0.0	lower_right	2.7439498901367188	-5.284383030837677	-5.826329835637184	0.22080899296435189	0.5419468047995064	-0.9346458864982147	False
35	1385.4713649749756	True	False	False	False	0.0	lower_right	3.51951003074646	-4.266659868319289	-3.977036692535962	-0.11800309775331697	-0.2896231757833272	0.9952543382107452	False
36	1400.3339490890503	True	False	False	False	0.0	lower_right	3.040968179702759	-0.8265493925122414	-0.9872664969483306	0.0654820393226751	0.1607171044360891	0.9621568322961926	False
37	1414.6961059570312	True	False	False	False	0.0	lower_right	3.193847894668579	-3.950859012748917	-4.190353769862678	0.09757894256447455	0.23949475711376067	-0.8837666880257049	False
38	1428.574537038803	True	False	False	False	0.0	lower_right	3.8529279232025146	-3.7885860768145534	-3.6532743594589174	-0.05513095340903134	-0.13531171735563596	0.834806956631511	False
39	1443.587338924408	True	False	False	False	0.0	lower_right	2.871238946914673	-0.06096030306795708	-6.144300975427808	-0.08142402939380622	-0.19984463481973513	0.9791068750656098	False
40	1456.9818251132965	True	False	False	False	0.0	lower_right	3.2556211948394775	-5.82165347999454	-5.42995017331454	-0.15959428475792004	-0.3917033066799993	0.8089460809848775	False
41	1469.5591731071472	True	False	False	True	0.0	lower_right	4.645173072814941	-0.11220233717968142	-0.06049895755953819	-0.021065852009222518	-0.05170337962014315	-0.8011899384442712	True
42	1485.4058640003204	True	False	False	False	0.0	lower_right	3.899336099624634	-5.0243149889057745	-5.947730356159926	0.3762332677773214	0.9234153672541519	0.8560023466931219	False
43	1503.8882660865784	True	False	False	False	0.0	lower_right	3.4961299896240234	-5.697382502413993	-5.578447614161332	-0.048458432951022604	-0.11893488825266108	0.9288767442562478	True
44	1518.0000839233398	True	False	False	False	0.0	lower_right	3.4227919578552246	-1.5937809586799627	-1.5220332979438154	-0.029232626845281655	-0.07174766073614736	-0.9713592750261058	False
45	1535.3481121063232	True	False	False	False	0.0	lower_right	3.49686598777771	-0.9360441443817411	-1.1312287522919589	0.07952536362077331	0.19518460791021752	0.8663300973066427	True
46	1551.945466041565	True	False	False	False	0.0	lower_right	3.835400104522705	-5.829453943608462	-5.785241215598237	-0.01801388597863609	-0.04421272801022447	-0.8148165132057148	False
47	1568.1584830284119	True	False	False	False	0.0	lower_right	4.042328119277954	-0.5628027500424331	-6.1672174023009045	-0.2765560446884315	-0.6787706549211148	0.8996638883766384	False
48	1581.5705180168152	True	False	False	False	0.0	lower_right	3.6802430152893066	-3.874047977472351	-4.065333843479188	0.07793687326362111	0.1912858660068366	-0.9091888747372885	False
49	1596.3496899604797	True	False	False	True	0.0	lower_right	3.198823928833008	-4.436150620036481	-4.453306259151626	0.006989836203714394	0.017155639115144616	1.0136794503440072	True
50	1611.1288259029388	True	False	False	False	0.0	lower_right	3.844679117202759	-2.5198113669933218	-2.2265304016211167	-0.11949341530559852	-0.29328096537220505	-0.890952202875549	False
1	1644.7087090015411	True	True	True	False	0.13514070766674366	lower_right	6.633865118026733	-4.657581787211757	-4.639000084198159	-0.007570866907339899	-0.01858170301359774	0.8039798664110255	False
2	1671.4130380153656	True	True	True	False	0.13514070766674366	lower_right	3.8761630058288574	-2.572044317425938	-2.256656566648172	-0.12850052998890554	-0.31538775077776604	-1.016107573107014	False
3	1689.5617430210114	True	True	True	False	0.13514070766674366	lower_right	4.0792930126190186	-2.8459710151427036	-2.6538101394611004	-0.07829338427800146	-0.19216087568160312	-0.8018586748683252	False
4	1707.0098419189453	True	True	True	False	0.13514070766674366	lower_right	3.8344309329986572	-0.5995502046610337	-0.16629120772856654	-0.1765255961621465	-0.43325899693246717	0.8443658480858097	False
5	1722.9893169403076	True	True	True	True	0.13514070766674366	lower_right	3.4672157764434814	-3.3613085430669982	-3.7786189697817125	0.1700275640715134	0.4173104267147143	1.0430392833524638	True
6	1744.5725390911102	True	True	False	True	0.13514070766674366	lower_right	3.1156301498413086	-2.8825714142071064	-2.6616310211501606	-0.09001921455021875	-0.2209403930569458	-0.9203413131300087	True
7	1758.3532099723816	True	True	False	False	0.13514070766674366	lower_right	3.753535032272339	-5.4501700144764715	-5.341888332188483	-0.044117926355045176	-0.10828168228798862	1.0225342318677948	False
8	1773.8662509918213	True	True	False	True	0.13514070766674366	lower_right	2.871567964553833	-5.443882075487213	-5.178745287366078	-0.10802644588796731	-0.2651367881211355	1.013719412609299	True
9	1789.3126919269562	True	True	False	False	0.13514070766674366	lower_right	6.86018705368042	-5.680088310035196	-5.852875150524873	0.0703996921988169	0.1727868404896764	-0.8477383871593417	False
10	1807.4112689495087	True	True	False	False	0.13514070766674366	lower_right	3.720201015472412	-1.5090481519656311	-1.0577283478002846	-0.18388423103534357	-0.45131980416534656	-0.9783502901440839	False
11	1824.1590700149536	True	True	False	False	0.13514070766674366	lower_right	3.6343162059783936	-5.616085618189291	-5.373501851536415	-0.09883751827623964	-0.24258376665287606	0.8868556975648197	False
12	1838.504238128662	True	True	False	False	0.13514070766674366	lower_right	4.235107183456421	-3.9243815912331463	-3.680954528871336	-0.09918110785848627	-0.24342706236181044	-0.8978546438250843	False
13	1854.7012090682983	True	True	False	False	0.13514070766674366	lower_right	3.5502891540527344	-1.972806517491252	-1.3088377679514285	-0.2705252058823873	-0.6639687495398237	0.8664542135407273	False
14	1868.2126879692078	True	True	False	True	0.13514070766674366	lower_right	3.094632148742676	-4.91238651227168	-4.240047592298175	-0.273935520119935	-0.6723389199735053	0.850280691368233	True
15	1880.4562981128693	True	True	False	False	0.13514070766674366	lower_right	3.805443048477173	-1.3913039603661783	-0.764218671102944	-0.25549753222772426	-0.6270852892632344	-0.8700799597131555	False
16	1896.486517906189	True	True	False	False	0.13514070766674366	lower_right	4.507298946380615	-1.0986270253167234	-0.5900822656106557	-0.20719977546419396	-0.5085447597060675	-0.7984068715724942	False
17	1912.9337770938873	True	True	False	False	0.13514070766674366	lower_right	3.7856130599975586	-6.052155753741156	-5.87909867812656	-0.0705097958939924	-0.1730570756145955	-0.9314090916630495	False
18	1928.1465620994568	True	True	False	False	0.13514070766674366	lower_right	4.139521837234497	-5.614734901369515	-5.127628489079532	-0.1984650069189366	-0.4871064122899833	0.9657084181102844	False
19	1942.4587371349335	True	True	False	False	0.13514070766674366	lower_right	4.5690388679504395	-2.828203303326326	-2.2102119835511846	-0.25179231572505073	-0.6179913197751414	-0.9466690838682639	False
20	1960.2904229164124	True	True	False	False	0.13514070766674366	lower_right	4.576991081237793	-5.854957060151958	-5.640487420132833	-0.08738279258158882	-0.21446964001912505	-0.7918217568338297	False
21	1976.2872819900513	True	True	False	False	0.13514070766674366	lower_right	4.740925073623657	-0.7203956319069524	-0.4473957884328683	-0.11123014285366825	-0.2729998434740839	-0.7885148617427761	False
22	1991.7503519058228	True	True	False	False	0.13514070766674366	lower_right	3.389822006225586	-1.102046478806236	-0.8986946160958229	-0.08285300259150512	-0.20335186271041295	0.7985364084100399	False
23	2005.6787819862366	True	True	False	False	0.13514070766674366	lower_right	4.1646339893341064	-5.241421098634963	-4.125784852769062	-0.4545510994484308	-1.1156362458659013	0.9499663207742586	False
24	2019.240266084671	True	True	False	False	0.13514070766674366	lower_right	3.9543421268463135	-3.0623265948203393	-2.1120530962640713	-0.3871762549362153	-0.950273498556268	0.950273498556268	False
25	2032.2345111370087	True	True	False	False	0.13514070766674366	lower_right	4.489124059677124	-1.3956347625726702	-1.072448869625764	-0.1316777789441747	-0.32318589294690625	-0.8426395058461853	False
26	2048.6650869846344	True	True	False	False	0.13514070766674366	lower_right	3.3117289543151855	-2.366613451435795	-1.7798033311711365	-0.23908795211896317	-0.5868101202646585	-0.953306590772568	False
27	2064.545581102371	True	True	False	False	0.13514070766674366	lower_right	3.5506298542022705	-3.1954615366021377	-2.573515198803926	-0.2534037350361269	-0.6219463377982115	-0.9672577584513531	False
28	2081.459485054016	True	True	False	False	0.13514070766674366	lower_right	3.957352876663208	-0.6511017104063281	-0.5756001429086097	-0.03076210605682748	-0.07550156749771819	-0.8510228283852057	False
29	2095.9550111293793	True	True	False	False	0.13514070766674366	lower_right	3.8077991008758545	-3.5567135287171707	-2.6440473989417845	-0.37185363442253305	-0.9126661297753862	-0.8238001221111891	False
30	2114.2204389572144	True	True	False	False	0.13514070766674366	lower_right	3.365088939666748	-1.917785249091411	-1.2299716374379601	-0.2802404767245721	-0.6878136116534508	0.9884738460790355	False
31	2127.0312559604645	True	True	False	False	0.13514070766674366	lower_right	2.590240001678467	-0.49316797435776544	-6.262057997420184	-0.20954274989081081	-0.5142952841171677	-1.0196855037684687	False
32	2142.4775891304016	True	True	False	False	0.13514070766674366	lower_right	3.8013720512390137	-5.256228378420541	-5.01143772648361	-0.0997366842328326	-0.24479065193693117	-0.8228599764314329	False
33	2158.4077229499817	True	True	False	False	0.13514070766674366	lower_right	2.8498871326446533	-0.6227934437042295	-0.8299362510287436	0.0843975723817689	0.20714280732451407	1.0139058998324395	False
34	2173.1702649593353	True	True	False	True	0.13514070766674366	lower_right	3.377497911453247	-5.660562644828898	-5.324027101788142	-0.13711691571469212	-0.33653554304075595	-0.9151927798738896	True
35	2188.0161170959473	True	True	False	False	0.13514070766674366	lower_right	3.9884021282196045	-4.6122721605016626	-3.5451968030097327	-0.4347656135587634	-1.0670753574919298	0.9627646639157026	False
36	2201.2940480709076	True	True	False	False	0.13514070766674366	lower_right	3.8719351291656494	-1.5449413712523548	-1.2899196331492435	-0.1039052037503921	-0.25502173810311124	-0.8494444291745608	False
37	2217.3075330257416	True	True	False	False	0.13514070766674366	lower_right	3.6358320713043213	-2.185294655134399	-1.8747518820050655	-0.12652650850559613	-0.31054277312933376	-0.9350496266338433	False
38	2232.9707701206207	True	True	False	False	0.13514070766674366	lower_right	4.160438060760498	-2.267351054589641	-1.5830618951791828	-0.27880448569439314	-0.6842891594104579	0.7885998529866812	False
39	2246.365410089493	True	True	False	False	0.13514070766674366	lower_right	3.7628679275512695	-2.467867341227418	-1.6610773116338722	-0.3287158303924975	-0.8067900295935457	0.8067900295935456	False
40	2258.90931391716	True	True	False	False	0.13514070766674366	lower_right	3.3976387977600098	-2.7479933647896813	-2.3386403932626396	-0.16678540515298448	-0.40935297152704164	0.9738579014689682	False
41	2272.1197381019592	True	True	False	False	0.13514070766674366	lower_right	3.1730117797851562	-2.069328970743931	-1.7414304123252318	-0.133597891596909	-0.3278985584186991	-0.9974608423145287	False
42	2287.6668870449066	True	True	False	False	0.13514070766674366	lower_right	2.97170090675354	-4.6563769645044655	-4.208233801104273	-0.1825899511500279	-0.4481431634001929	0.7856189367350298	False
43	2299.627058029175	True	True	False	False	0.13514070766674366	lower_right	3.04544997215271	-4.067884277665957	-4.299417166106447	0.09433498543013963	0.2315328884404897	-0.8021737415339255	False
44	2312.3544330596924	True	True	False	True	0.13514070766674366	lower_right	3.5653488636016846	-1.6744041284724265	-1.2070125649742913	-0.19043245488685498	-0.4673915634981354	0.7864595673783474	True
45	2325.7159440517426	True	True	False	False	0.13514070766674366	lower_right	3.6189491748809814	-2.1983809997796264	-1.7616958487183418	-0.17792153693756024	-0.4366851510612846	1.0195978504578262	True
46	2339.3605949878693	True	True	False	False	0.13514070766674366	lower_right	3.646631956100464	-6.227815572245181	-0.047246918080894505	0.041809785781582905	0.10261665301529987	-0.9861895868374271	True
47	2353.505851984024	True	True	False	False	0.13514070766674366	lower_right	3.232074022293091	-3.8472460810927194	-3.1297776722301456	-0.2923229280838544	-0.7174684088625738	0.8831383339542286	True
48	2366.78377699852	True	True	False	False	0.13514070766674366	lower_right	3.4175829887390137	-5.8997473072481545	-5.785731488002401	-0.04645422393250222	-0.11401581924575321	0.9853169067647626	False
49	2381.2292540073395	True	True	False	False	0.13514070766674366	lower_right	3.6838979721069336	-1.5925126585079692	-1.3825645914922657	-0.08554053800483255	-0.20994806701570345	0.9462588452008087	False
50	2395.3745369911194	True	True	False	False	0.13514070766674366	lower_right	3.771667003631592	-1.057966101873295	-1.120150811641294	0.025336330097438423	0.062184709767998836	-0.9825731824993816	False